No.,Max Frequency (Hz),Max Magnitude
136,75.68,32.34
137,244.53,28.40
138,96.70,37.37
139,101.91,19.93
140,83.26,34.07
141,79.87,73.27
142,96.46,28.26
143,101.45,29.99
144,134.69,35.02
145,96.69,35.74
146,99.99,22.65
147,99.53,37.67
148,102.05,47.16
149,99.94,50.07
150,96.70,33.08
151,98.88,27.45
152,99.91,38.46
153,102.56,46.51
154,130.71,36.07
155,131.38,22.50
